File: FTIR C.txt
##TITLE=No Description
##DATA TYPE=INFRARED SPECTRUM
##XUNITS=1/CM
##YUNITS=%T
349.116  	39.4521
352.973  	99.1707
356.831  	38.3641
360.689  	18.9386
364.546  	35.1728
368.404  	106.789
372.261  	138.504
376.119  	45.7759
379.977  	196.156
383.834  	222.96
387.692  	182.402
391.55  	117.523
395.407  	84.3878
399.265  	79.956
403.123  	142.013
406.98  	111.843
410.838  	118.41
414.695  	107.708
418.553  	130.658
422.411  	106.752
426.268  	101.959
430.126  	106.925
433.984  	111.299
437.841  	106.414
441.699  	104.608
445.556  	103.89
449.414  	101.249
453.272  	102.47
457.129  	104.516
460.987  	104.297
464.845  	105.058
468.702  	104.063
472.56  	103.251
476.418  	103.711
480.275  	102.73
484.133  	104.053
487.99  	104.25
491.848  	103.568
495.706  	104.238
499.563  	104.224
503.421  	104.007
507.279  	103.697
511.136  	103.481
514.994  	103.385
518.852  	103.737
522.709  	103.854
526.567  	103.552
530.424  	103.111
534.282  	103.548
538.14  	104.266
541.997  	103.784
545.855  	103.147
549.713  	103.223
553.57  	103.735
557.428  	103.456
561.285  	102.063
565.143  	101.801
569.001  	101.258
572.858  	101.93
576.716  	101.844
580.574  	101.775
584.431  	102.014
588.289  	102.358
592.147  	102.355
596.004  	102.296
599.862  	102.52
603.719  	102.339
607.577  	102.498
611.435  	102.341
615.292  	101.851
619.15  	101.858
623.008  	102.702
626.865  	103.072
630.723  	103.368
634.58  	103.205
638.438  	103.344
642.296  	103.222
646.153  	103.341
650.011  	103.343
653.869  	103.261
657.726  	103.465
661.584  	103.373
665.442  	103.208
669.299  	102.489
673.157  	102.901
677.014  	102.79
680.872  	102.862
684.73  	102.743
688.587  	102.629
692.445  	102.537
696.303  	102.213
700.16  	102.44
704.018  	102.247
707.875  	102.176
711.733  	102.299
715.591  	102.582
719.448  	102.524
723.306  	102.631
727.164  	102.654
731.021  	102.73
734.879  	102.929
738.737  	102.824
742.594  	102.384
746.452  	102.829
750.309  	102.829
754.167  	102.498
758.025  	102.32
761.882  	102.608
765.74  	102.407
769.598  	102.229
773.455  	102.259
777.313  	102.485
781.17  	102.182
785.028  	102.134
788.886  	102.159
792.743  	102.165
796.601  	102.112
800.459  	101.917
804.316  	101.839
808.174  	101.997
812.032  	101.828
815.889  	101.935
819.747  	101.712
823.604  	101.611
827.462  	101.622
831.32  	101.455
835.177  	101.471
839.035  	101.266
842.893  	101.15
846.75  	100.769
850.608  	100.643
854.465  	99.9755
858.323  	98.7968
862.181  	98.1161
866.038  	97.671
869.896  	97.6649
873.754  	98.7064
877.611  	99.5998
881.469  	100.766
885.327  	101.445
889.184  	102.208
893.042  	102.316
896.899  	102.317
900.757  	102.039
904.615  	101.936
908.472  	101.895
912.33  	101.725
916.188  	101.673
920.045  	101.569
923.903  	101.477
927.76  	101.275
931.618  	101.196
935.476  	101.001
939.333  	100.896
943.191  	100.773
947.049  	100.684
950.906  	100.609
954.764  	100.326
958.622  	100.353
962.479  	100.298
966.337  	100.364
970.194  	100.362
974.052  	100.27
977.91  	100.23
981.767  	100.078
985.625  	99.904
989.483  	99.5623
993.34  	99.1769
997.198  	98.8533
1001.06  	98.5047
1004.91  	98.1071
1008.77  	97.6669
1012.63  	97.2787
1016.49  	96.983
1020.34  	96.6976
1024.2  	96.4706
1028.06  	96.3102
1031.92  	96.2367
1035.77  	96.1647
1039.63  	96.1342
1043.49  	96.0143
1047.35  	96.0257
1051.2  	96.107
1055.06  	96.0958
1058.92  	96.2398
1062.78  	96.5104
1066.64  	96.5574
1070.49  	96.7212
1074.35  	96.9811
1078.21  	97.208
1082.07  	97.4164
1085.92  	97.6151
1089.78  	97.6882
1093.64  	97.9129
1097.5  	98.0613
1101.35  	98.1787
1105.21  	98.1182
1109.07  	98.0928
1112.93  	98.2075
1116.78  	98.2951
1120.64  	98.4185
1124.5  	98.6076
1128.36  	98.6789
1132.21  	98.7772
1136.07  	98.8948
1139.93  	98.9437
1143.79  	99.0796
1147.65  	99.1916
1151.5  	99.3126
1155.36  	99.4717
1159.22  	99.5552
1163.08  	99.6327
1166.93  	99.7009
1170.79  	99.7628
1174.65  	99.7752
1178.51  	99.7748
1182.36  	99.7391
1186.22  	99.709
1190.08  	99.647
1193.94  	99.619
1197.79  	99.5538
1201.65  	99.4639
1205.51  	99.4135
1209.37  	99.3221
1213.23  	99.1965
1217.08  	99.2247
1220.94  	99.2424
1224.8  	99.2336
1228.66  	99.1711
1232.51  	99.0638
1236.37  	99.0179
1240.23  	98.9392
1244.09  	98.8331
1247.94  	98.7287
1251.8  	98.6544
1255.66  	98.5278
1259.52  	98.3286
1263.37  	98.1217
1267.23  	98.0292
1271.09  	97.7737
1274.95  	97.6332
1278.81  	97.4919
1282.66  	97.2707
1286.52  	97.1001
1290.38  	96.9651
1294.24  	96.8645
1298.09  	96.6819
1301.95  	96.566
1305.81  	96.3838
1309.67  	96.149
1313.52  	95.7423
1317.38  	95.5008
1321.24  	95.074
1325.1  	94.8389
1328.95  	94.5129
1332.81  	94.2145
1336.67  	93.9212
1340.53  	93.0664
1344.38  	92.9971
1348.24  	92.5813
1352.1  	92.1008
1355.96  	91.4931
1359.82  	91.2008
1363.67  	90.0276
1367.53  	89.8625
1371.39  	89.3298
1375.25  	88.3466
1379.1  	88.4033
1382.96  	88.4073
1386.82  	88.3588
1390.68  	88.3019
1394.53  	88.2491
1398.39  	88.1256
1402.25  	88.4696
1406.11  	88.3373
1409.96  	88.6948
1413.82  	88.9624
1417.68  	89.3101
1421.54  	89.1068
1425.4  	89.3593
1429.25  	89.7854
1433.11  	90.1021
1436.97  	89.8012
1440.83  	90.347
1444.68  	90.5814
1448.54  	90.3713
1452.4  	90.6207
1456.26  	90.8445
1460.11  	90.1752
1463.97  	91.1707
1467.83  	91.4649
1471.69  	92.1834
1475.54  	92.1384
1479.4  	93.0494
1483.26  	93.6255
1487.12  	94.3282
1490.97  	94.183
1494.83  	95.3872
1498.69  	95.3006
1502.55  	96.1523
1506.41  	96.3902
1510.26  	96.4398
1514.12  	97.411
1517.98  	97.5904
1521.84  	97.6387
1525.69  	98.3534
1529.55  	98.8532
1533.41  	99.0163
1537.27  	99.9634
1541.12  	99.117
1544.98  	99.6797
1548.84  	100.432
1552.7  	100.611
1556.55  	101.068
1560.41  	99.7231
1564.27  	100.731
1568.13  	101
1571.99  	100.719
1575.84  	100.701
1579.7  	100.775
1583.56  	100.931
1587.42  	100.947
1591.27  	100.941
1595.13  	100.848
1598.99  	100.975
1602.85  	100.972
1606.7  	101.014
1610.56  	100.95
1614.42  	101.331
1618.28  	100.68
1622.13  	101.223
1625.99  	101.056
1629.85  	101.078
1633.71  	101.61
1637.56  	100.713
1641.42  	101.131
1645.28  	101.409
1649.14  	100.952
1653  	100.849
1656.85  	100.881
1660.71  	101.223
1664.57  	100.993
1668.43  	101.331
1672.28  	100.948
1676.14  	100.766
1680  	101.122
1683.86  	100.934
1687.71  	100.955
1691.57  	101.065
1695.43  	101.184
1699.29  	101.13
1703.14  	101.067
1707  	100.903
1710.86  	101.187
1714.72  	101.278
1718.58  	100.47
1722.43  	101.097
1726.29  	101.063
1730.15  	101.091
1734.01  	100.886
1737.86  	101.002
1741.72  	100.738
1745.58  	100.828
1749.44  	100.55
1753.29  	100.591
1757.15  	100.499
1761.01  	100.573
1764.87  	100.649
1768.72  	100.655
1772.58  	100.249
1776.44  	100.483
1780.3  	100.461
1784.15  	100.432
1788.01  	100.533
1791.87  	100.313
1795.73  	100.339
1799.59  	100.428
1803.44  	100.275
1807.3  	100.395
1811.16  	100.38
1815.02  	100.467
1818.87  	100.404
1822.73  	100.429
1826.59  	100.343
1830.45  	100.122
1834.3  	100.315
1838.16  	100.124
1842.02  	100.546
1845.88  	100.073
1849.73  	100.278
1853.59  	100.3
1857.45  	100.186
1861.31  	100.197
1865.17  	100.296
1869.02  	99.8697
1872.88  	100.018
1876.74  	100.156
1880.6  	100.206
1884.45  	100.036
1888.31  	99.9965
1892.17  	100.008
1896.03  	99.9322
1899.88  	99.9361
1903.74  	99.9357
1907.6  	99.8515
1911.46  	99.728
1915.31  	99.9649
1919.17  	99.7984
1923.03  	99.6314
1926.89  	99.7091
1930.74  	99.7178
1934.6  	99.6521
1938.46  	99.6695
1942.32  	99.7802
1946.18  	99.4626
1950.03  	99.5067
1953.89  	99.5247
1957.75  	99.6186
1961.61  	99.6025
1965.46  	99.3506
1969.32  	99.0435
1973.18  	99.4367
1977.04  	99.9246
1980.89  	99.6512
1984.75  	99.3559
1988.61  	99.4844
1992.47  	99.0745
1996.32  	99.4847
2000.18  	99.5696
2004.04  	99.4028
2007.9  	99.7239
2011.76  	99.8432
2015.61  	99.3839
2019.47  	98.828
2023.33  	98.8234
2027.19  	98.9295
2031.04  	99.2001
2034.9  	99.1878
2038.76  	99.6035
2042.62  	99.3075
2046.47  	99.1637
2050.33  	99.4757
2054.19  	99.3363
2058.05  	99.1554
2061.9  	99.0269
2065.76  	99.0452
2069.62  	99.1729
2073.48  	99.2129
2077.33  	99.0679
2081.19  	98.9194
2085.05  	99.135
2088.91  	99.116
2092.77  	98.7318
2096.62  	98.915
2100.48  	99.0224
2104.34  	99.0074
2108.2  	98.9306
2112.05  	98.9889
2115.91  	98.9349
2119.77  	98.9156
2123.63  	98.9022
2127.48  	98.8244
2131.34  	98.7781
2135.2  	98.6355
2139.06  	98.8274
2142.91  	98.7505
2146.77  	98.9714
2150.63  	98.695
2154.49  	98.5896
2158.35  	98.4327
2162.2  	98.8538
2166.06  	99.2885
2169.92  	98.7363
2173.78  	98.6471
2177.63  	98.7251
2181.49  	98.2204
2185.35  	98.394
2189.21  	98.7818
2193.06  	98.3158
2196.92  	98.6275
2200.78  	98.4239
2204.64  	98.5871
2208.49  	98.3733
2212.35  	98.6786
2216.21  	98.2383
2220.07  	98.3919
2223.92  	98.3186
2227.78  	98.2311
2231.64  	98.439
2235.5  	98.3966
2239.36  	98.302
2243.21  	98.4168
2247.07  	98.3456
2250.93  	98.4472
2254.79  	98.3275
2258.64  	98.2804
2262.5  	98.2539
2266.36  	98.322
2270.22  	98.2383
2274.07  	98.2177
2277.93  	98.0456
2281.79  	98.275
2285.65  	98.2255
2289.5  	98.1191
2293.36  	98.1113
2297.22  	98.1056
2301.08  	98.205
2304.94  	98.1708
2308.79  	98.1298
2312.65  	97.9968
2316.51  	98.0882
2320.37  	98.0467
2324.22  	98.1556
2328.08  	98.1185
2331.94  	98.1455
2335.8  	98.0806
2339.65  	98.1238
2343.51  	97.9962
2347.37  	97.8759
2351.23  	98.3025
2355.08  	98.1895
2358.94  	98.3003
2362.8  	98.0769
2366.66  	97.8769
2370.51  	97.991
2374.37  	97.8829
2378.23  	97.9111
2382.09  	97.9956
2385.95  	98.0298
2389.8  	98.084
2393.66  	98.0448
2397.52  	98.0753
2401.38  	98.0233
2405.23  	98.0328
2409.09  	97.9472
2412.95  	97.989
2416.81  	97.9993
2420.66  	97.8984
2424.52  	97.9409
2428.38  	97.9503
2432.24  	97.9312
2436.09  	97.9215
2439.95  	97.9084
2443.81  	97.9149
2447.67  	97.9869
2451.53  	97.9907
2455.38  	97.9082
2459.24  	97.893
2463.1  	97.8663
2466.96  	97.9394
2470.81  	97.9295
2474.67  	97.9293
2478.53  	97.8266
2482.39  	97.765
2486.24  	97.7972
2490.1  	97.7796
2493.96  	97.8757
2497.82  	97.7791
2501.67  	97.7061
2505.53  	97.7211
2509.39  	97.7689
2513.25  	97.7126
2517.1  	97.692
2520.96  	97.7553
2524.82  	97.6276
2528.68  	97.6994
2532.54  	97.6879
2536.39  	97.612
2540.25  	97.7456
2544.11  	97.6333
2547.97  	97.7044
2551.82  	97.705
2555.68  	97.6805
2559.54  	97.6779
2563.4  	97.5775
2567.25  	97.6318
2571.11  	97.6027
2574.97  	97.6709
2578.83  	97.613
2582.68  	97.6736
2586.54  	97.6168
2590.4  	97.6297
2594.26  	97.5615
2598.12  	97.56
2601.97  	97.5661
2605.83  	97.6109
2609.69  	97.6419
2613.55  	97.5889
2617.4  	97.6073
2621.26  	97.6245
2625.12  	97.5781
2628.98  	97.5675
2632.83  	97.5675
2636.69  	97.511
2640.55  	97.4865
2644.41  	97.4969
2648.26  	97.5174
2652.12  	97.5127
2655.98  	97.4744
2659.84  	97.4945
2663.69  	97.4649
2667.55  	97.4728
2671.41  	97.4483
2675.27  	97.3997
2679.13  	97.4014
2682.98  	97.3479
2686.84  	97.3715
2690.7  	97.3677
2694.56  	97.3198
2698.41  	97.3119
2702.27  	97.3206
2706.13  	97.2581
2709.99  	97.2801
2713.84  	97.1846
2717.7  	97.2063
2721.56  	97.2004
2725.42  	97.1947
2729.27  	97.1063
2733.13  	97.0995
2736.99  	97.1374
2740.85  	97.0596
2744.71  	97.0728
2748.56  	97.0573
2752.42  	97.0204
2756.28  	96.9773
2760.14  	96.9737
2763.99  	96.9665
2767.85  	96.9554
2771.71  	96.86
2775.57  	96.8704
2779.42  	96.8423
2783.28  	96.878
2787.14  	96.8179
2791  	96.7618
2794.85  	96.7729
2798.71  	96.7378
2802.57  	96.7205
2806.43  	96.6935
2810.28  	96.6766
2814.14  	96.697
2818  	96.595
2821.86  	96.608
2825.72  	96.6258
2829.57  	96.597
2833.43  	96.5304
2837.29  	96.5514
2841.15  	96.5422
2845  	96.5519
2848.86  	96.5039
2852.72  	96.4785
2856.58  	96.4321
2860.43  	96.4
2864.29  	96.3827
2868.15  	96.393
2872.01  	96.3575
2875.86  	96.3677
2879.72  	96.3452
2883.58  	96.4195
2887.44  	96.337
2891.3  	96.3413
2895.15  	96.3515
2899.01  	96.3697
2902.87  	96.3512
2906.73  	96.4093
2910.58  	96.3602
2914.44  	96.3157
2918.3  	96.3481
2922.16  	96.3507
2926.01  	96.3009
2929.87  	96.2989
2933.73  	96.3194
2937.59  	96.2847
2941.44  	96.3528
2945.3  	96.309
2949.16  	96.2812
2953.02  	96.3879
2956.87  	96.3347
2960.73  	96.3583
2964.59  	96.2918
2968.45  	96.2767
2972.31  	96.3578
2976.16  	96.3252
2980.02  	96.3104
2983.88  	96.3803
2987.74  	96.4036
2991.59  	96.3823
2995.45  	96.3757
2999.31  	96.4049
3003.17  	96.4718
3007.02  	96.413
3010.88  	96.4341
3014.74  	96.3572
3018.6  	96.3672
3022.45  	96.4145
3026.31  	96.4174
3030.17  	96.3234
3034.03  	96.3739
3037.89  	96.3545
3041.74  	96.3157
3045.6  	96.422
3049.46  	96.3537
3053.32  	96.3875
3057.17  	96.3382
3061.03  	96.3277
3064.89  	96.3705
3068.75  	96.3038
3072.6  	96.3784
3076.46  	96.401
3080.32  	96.4013
3084.18  	96.3748
3088.03  	96.4026
3091.89  	96.4188
3095.75  	96.3459
3099.61  	96.3976
3103.46  	96.4073
3107.32  	96.3904
3111.18  	96.3287
3115.04  	96.5026
3118.9  	96.4175
3122.75  	96.3733
3126.61  	96.485
3130.47  	96.471
3134.33  	96.4194
3138.18  	96.3399
3142.04  	96.5309
3145.9  	96.4753
3149.76  	96.4838
3153.61  	96.5512
3157.47  	96.4327
3161.33  	96.5355
3165.19  	96.5601
3169.04  	96.5302
3172.9  	96.5358
3176.76  	96.5853
3180.62  	96.6303
3184.48  	96.6158
3188.33  	96.5925
3192.19  	96.6537
3196.05  	96.6442
3199.91  	96.6569
3203.76  	96.7311
3207.62  	96.752
3211.48  	96.7456
3215.34  	96.7386
3219.19  	96.7607
3223.05  	96.7737
3226.91  	96.712
3230.77  	96.8493
3234.62  	96.8806
3238.48  	96.8564
3242.34  	96.887
3246.2  	96.6907
3250.05  	96.8661
3253.91  	96.9056
3257.77  	96.8708
3261.63  	96.8839
3265.49  	96.9069
3269.34  	97.0121
3273.2  	96.8529
3277.06  	96.9103
3280.92  	96.9589
3284.77  	97.0018
3288.63  	96.9462
3292.49  	96.9223
3296.35  	96.8979
3300.2  	96.9886
3304.06  	97.0655
3307.92  	97.1299
3311.78  	97.0815
3315.63  	97.0297
3319.49  	97.1467
3323.35  	97.0801
3327.21  	97.1056
3331.07  	97.0614
3334.92  	97.0478
3338.78  	97.028
3342.64  	97.1146
3346.5  	97.0715
3350.35  	97.1435
3354.21  	97.1009
3358.07  	97.0387
3361.93  	97.0859
3365.78  	97.0948
3369.64  	97.044
3373.5  	97.1228
3377.36  	97.2045
3381.21  	97.1703
3385.07  	97.1494
3388.93  	97.106
3392.79  	97.0569
3396.64  	97.2029
3400.5  	97.1176
3404.36  	97.1415
3408.22  	97.1528
3412.08  	97.1863
3415.93  	97.2704
3419.79  	97.2449
3423.65  	97.2023
3427.51  	97.2226
3431.36  	97.2733
3435.22  	97.2966
3439.08  	97.1995
3442.94  	97.217
3446.79  	97.1038
3450.65  	97.1712
3454.51  	97.3079
3458.37  	97.4115
3462.22  	97.4921
3466.08  	97.2388
3469.94  	97.3235
3473.8  	97.3061
3477.66  	97.3428
3481.51  	97.3949
3485.37  	97.4
3489.23  	97.3414
3493.09  	97.4065
3496.94  	97.4412
3500.8  	97.5031
3504.66  	97.2734
3508.52  	97.4172
3512.37  	97.44
3516.23  	97.4271
3520.09  	97.6566
3523.95  	97.3932
3527.8  	97.3646
3531.66  	97.3855
3535.52  	97.5175
3539.38  	97.5926
3543.23  	97.6577
3547.09  	97.2677
3550.95  	97.44
3554.81  	97.469
3558.67  	97.6215
3562.52  	97.9073
3566.38  	97.4282
3570.24  	97.367
3574.1  	97.6577
3577.95  	97.5796
3581.81  	97.7456
3585.67  	97.7724
3589.53  	97.167
3593.38  	97.559
3597.24  	97.6105
3601.1  	97.4966
3604.96  	97.9631
3608.81  	97.3838
3612.67  	97.5146
3616.53  	97.7524
3620.39  	97.0584
3624.25  	97.8507
3628.1  	97.3917
3631.96  	97.3722
3635.82  	97.5941
3639.68  	97.7001
3643.53  	97.9208
3647.39  	97.9876
3651.25  	96.6718
3655.11  	97.712
3658.96  	97.601
3662.82  	97.6271
3666.68  	98.1084
3670.54  	97.3402
3674.39  	97.8628
3678.25  	97.2592
3682.11  	97.7061
3685.97  	98.1672
3689.83  	97.1587
3693.68  	97.5067
3697.54  	97.7901
3701.4  	97.5991
3705.26  	97.8503
3709.11  	97.9743
3712.97  	96.8915
3716.83  	97.8534
3720.69  	97.8813
3724.54  	97.6602
3728.4  	97.7591
3732.26  	98.0886
3736.12  	96.7054
3739.97  	97.7479
3743.83  	97.4521
3747.69  	97.859
3751.55  	96.8196
3755.4  	97.6213
3759.26  	97.3995
3763.12  	97.8642
3766.98  	97.8527
3770.84  	97.2537
3774.69  	97.8403
3778.55  	97.6724
3782.41  	97.7483
3786.27  	97.5289
3790.12  	97.6889
3793.98  	98.0271
3797.84  	97.9152
3801.7  	97.1897
3805.55  	97.6443
3809.41  	97.4751
3813.27  	98.1826
3817.13  	97.6561
3820.98  	97.2065
3824.84  	97.5712
3828.7  	97.668
3832.56  	97.72
3836.42  	97.7961
3840.27  	97.138
3844.13  	97.212
3847.99  	97.9786
3851.85  	98.024
3855.7  	96.6739
3859.56  	97.8204
3863.42  	97.4377
3867.28  	97.8228
3871.13  	97.2815
3874.99  	97.2571
3878.85  	97.8514
3882.71  	97.728
3886.56  	97.2518
3890.42  	97.5811
3894.28  	97.4554
3898.14  	97.9118
3901.99  	97.4369
3905.85  	97.0551
3909.71  	97.6247
3913.57  	97.7692
3917.43  	97.5723
3921.28  	97.658
3925.14  	97.3891
3929  	97.6973
3932.86  	97.3235
3936.71  	97.6113
3940.57  	97.7339
3944.43  	97.4549
3948.29  	97.4694
3952.14  	97.4901
3956  	97.5736
3959.86  	97.6587
3963.72  	97.5831
3967.57  	97.6459
3971.43  	97.6063
3975.29  	97.5536
3979.15  	97.6569
3983.01  	97.5782
3986.86  	97.6689
3990.72  	97.6405
3994.58  	97.6053
3998.44  	97.6014
4002.29  	97.6163
4006.15  	97.6333
4010.01  	97.6024
4013.87  	97.5503
4017.72  	97.6012
4021.58  	97.6735
4025.44  	97.5946
4029.3  	97.6382
4033.15  	97.6318
4037.01  	97.583
4040.87  	97.6384
4044.73  	97.6331
4048.58  	97.6665
4052.44  	97.6775
4056.3  	97.6837
4060.16  	97.6152
4064.02  	97.6383
4067.87  	97.6554
4071.73  	97.6348
4075.59  	97.6731
4079.45  	97.6671
4083.3  	97.6647
4087.16  	97.5556
4091.02  	97.6336
4094.88  	97.6543
4098.73  	97.6301
4102.59  	97.7018
4106.45  	97.6275
4110.31  	97.6591
4114.16  	97.6862
4118.02  	97.783
4121.88  	97.7077
4125.74  	97.6613
4129.6  	97.7191
4133.45  	97.6934
4137.31  	97.6653
4141.17  	97.6828
4145.03  	97.6568
4148.88  	97.6956
4152.74  	97.6296
4156.6  	97.6824
4160.46  	97.681
4164.31  	97.6779
4168.17  	97.6323
4172.03  	97.631
4175.89  	97.6614
4179.74  	97.6929
4183.6  	97.6824
4187.46  	97.6765
4191.32  	97.5495
4195.17  	97.5808
4199.03  	97.6385
4202.89  	97.6317
4206.75  	97.6207
4210.61  	97.6404
4214.46  	97.631
4218.32  	97.702
4222.18  	97.6066
4226.04  	97.5982
4229.89  	97.6391
4233.75  	97.5847
4237.61  	97.6445
4241.47  	97.518
4245.32  	97.6317
4249.18  	97.6542
4253.04  	97.5403
4256.9  	97.6757
4260.75  	97.6216
4264.61  	97.7005
4268.47  	97.692
4272.33  	97.6822
4276.19  	97.6288
4280.04  	97.6953
4283.9  	97.753
4287.76  	97.669
4291.62  	97.702
4295.47  	97.7072
4299.33  	97.7436
4303.19  	97.6327
4307.05  	97.6418
4310.9  	97.7243
4314.76  	97.7251
4318.62  	97.6812
4322.48  	97.7941
4326.33  	97.6956
4330.19  	97.708
4334.05  	97.658
4337.91  	97.6599
4341.76  	97.6456
4345.62  	97.6753
4349.48  	97.6464
4353.34  	97.6077
4357.2  	97.6514
4361.05  	97.6662
4364.91  	97.7189
4368.77  	97.6627
4372.63  	97.698
4376.48  	97.6647
4380.34  	97.6159
4384.2  	97.655
4388.06  	97.6891
4391.91  	97.7549
4395.77  	97.804
4399.63  	97.6986
4403.49  	97.6805
4407.34  	97.5946
4411.2  	97.7302
4415.06  	97.6342
4418.92  	97.6244
4422.78  	97.6335
4426.63  	97.6049
4430.49  	97.6816
4434.35  	97.7208
4438.21  	97.6559
4442.06  	97.8034
4445.92  	97.8138
4449.78  	97.7638
4453.64  	97.6484
4457.49  	97.7411
4461.35  	97.7392
4465.21  	97.7016
4469.07  	97.6927
4472.92  	97.6696
4476.78  	97.7224
4480.64  	97.7223
4484.5  	97.7141
4488.35  	97.6429
4492.21  	97.8055
4496.07  	97.7924
4499.93  	97.725