File: XRD C.uxd
;content of C:\Users\HF1N8D2\AppData\Local\Temp\92fetmp887375713.raw - (Diffrac Plus V4 file)
_FILEVERSION = 3
_SAMPLE = Commander Sample ID
_+SAMPLE
_USER = Lab Manager
_GONIOMETER_CODE = 21
_STAGE_CODE = 7
; Goniometer : D8 theta/theta, stage : Chi drive
_SAMPLE_CHANGER_CODE = 0
_ATTACHMENTS_CODE = 0
_GONIOMETER_RADIUS = 280
_MONOCHROMATOR = 0
; Incident beam monochromator : None
_BETA_FILTER = N
_ANALYZER_CODE = 0
; Received beam analyzer : None
_DATEMEASURED = 01-Aug-2021 15:42:48
_RUNTIME = 7.858514
_WL_UNIT = A
_WL1 = 1.5406
_WL2 = 1.54439
_WL3 = 1.39222
_WLRATIO = 0.5
_ANODE = Cu
_V4_INF_USER = Lab Manager
_V4_INF_SAMPLEID = Commander Sample ID
_V4_INF_CREATOR = V5Converter
_V4_INF_CREATOR_VERSION = 6.1.2.0

; Data for range 1
_DRIVE = COUPLED
_STEPTIME = 79.5
_STEPSIZE = 0.050057
_STEPMODE = C
_START = 5.0001
_THETA = 2.50005
_2THETA = 5.0001
_DETECTORSLIT = out
_TIMESTARTED = 0
_ROTATION_SPEED = 5
_KV = 40
_MA = 25
_RANGE_WL = 1.5406
_3DPLANE = 0
_V4_PSD2THETA = 9999
_V4_PSDCHANNEL1 = 0
_V4_PSDAPERTURE = 2.436459
_V4_PSDTYPE = 5
_V4_PSDFIXED = 0
_V4_COUNTERS_MASK = 1
_V4_DRIVES_MASK = 0
_V4_ENCODERS_MASK = 0
_2THETACOUNTS = 1
; 2THETA	Cnt2_D1
5.000100	92
5.050157	105
5.100214	97
5.150272	102
5.200329	108
5.250386	106
5.300443	92
5.350501	113
5.400558	123
5.450615	96
5.500672	116
5.550729	87
5.600787	103
5.650844	101
5.700901	83
5.750958	84
5.801016	95
5.851073	90
5.901130	85
5.951187	106
6.001244	98
6.051302	100
6.101359	109
6.151416	110
6.201473	88
6.251531	95
6.301588	88
6.351645	95
6.401702	96
6.451759	86
6.501817	88
6.551874	112
6.601931	113
6.651988	111
6.702046	110
6.752103	88
6.802160	94
6.852217	99
6.902274	102
6.952332	81
7.002389	111
7.052446	112
7.102503	113
7.152560	122
7.202618	108
7.252675	120
7.302732	103
7.352789	93
7.402847	134
7.452904	115
7.502961	120
7.553018	121
7.603075	106
7.653133	117
7.703190	105
7.753247	119
7.803304	138
7.853362	118
7.903419	113
7.953476	127
8.003533	108
8.053590	110
8.103648	109
8.153705	108
8.203762	122
8.253819	132
8.303877	122
8.353934	127
8.403991	112
8.454048	112
8.504105	133
8.554163	131
8.604220	128
8.654277	110
8.704334	119
8.754392	140
8.804449	98
8.854506	117
8.904563	107
8.954620	143
9.004678	134
9.054735	127
9.104792	141
9.154849	114
9.204907	132
9.254964	163
9.305021	134
9.355078	124
9.405135	133
9.455193	124
9.505250	139
9.555307	152
9.605364	151
9.655422	124
9.705479	144
9.755536	137
9.805593	134
9.855650	138
9.905708	135
9.955765	124
10.0058	133
10.0559	118
10.1059	148
10.156	147
10.2061	144
10.2561	155
10.3062	145
10.3562	157
10.4063	143
10.4563	154
10.5064	161
10.5565	143
10.6065	155
10.6566	162
10.7066	159
10.7567	154
10.8067	153
10.8568	163
10.9069	157
10.9569	130
11.007	192
11.057	186
11.1071	157
11.1571	166
11.2072	167
11.2573	164
11.3073	183
11.3574	171
11.4074	175
11.4575	176
11.5075	172
11.5576	171
11.6077	163
11.6577	173
11.7078	179
11.7578	174
11.8079	168
11.8579	159
11.908	177
11.9581	146
12.0081	146
12.0582	155
12.1082	165
12.1583	191
12.2083	151
12.2584	139
12.3085	185
12.3585	179
12.4086	181
12.4586	169
12.5087	165
12.5587	145
12.6088	158
12.6589	186
12.7089	183
12.759	167
12.809	174
12.8591	178
12.9091	181
12.9592	169
13.0093	160
13.0593	166
13.1094	170
13.1594	156
13.2095	169
13.2595	187
13.3096	201
13.3597	219
13.4097	238
13.4598	243
13.5098	232
13.5599	203
13.6099	221
13.66	158
13.7101	152
13.7601	174
13.8102	150
13.8602	169
13.9103	162
13.9603	145
14.0104	202
14.0605	172
14.1105	148
14.1606	166
14.2106	170
14.2607	163
14.3107	148
14.3608	163
14.4109	159
14.4609	157
14.511	162
14.561	135
14.6111	137
14.6611	155
14.7112	159
14.7613	155
14.8113	147
14.8614	156
14.9114	147
14.9615	143
15.0115	170
15.0616	177
15.1117	164
15.1617	172
15.2118	164
15.2618	153
15.3119	163
15.3619	182
15.412	169
15.4621	175
15.5121	162
15.5622	165
15.6122	156
15.6623	172
15.7123	158
15.7624	157
15.8125	174
15.8625	174
15.9126	149
15.9626	174
16.0127	171
16.0627	165
16.1128	184
16.1629	170
16.2129	193
16.263	192
16.313	152
16.3631	178
16.4131	169
16.4632	171
16.5133	174
16.5633	172
16.6134	163
16.6634	161
16.7135	173
16.7635	160
16.8136	163
16.8637	176
16.9137	189
16.9638	178
17.0138	171
17.0639	163
17.1139	147
17.164	173
17.2141	159
17.2641	173
17.3142	184
17.3642	170
17.4143	147
17.4643	161
17.5144	169
17.5645	179
17.6145	161
17.6646	163
17.7146	160
17.7647	191
17.8147	183
17.8648	172
17.9149	178
17.9649	152
18.015	186
18.065	167
18.1151	179
18.1651	167
18.2152	164
18.2653	165
18.3153	166
18.3654	156
18.4154	186
18.4655	168
18.5156	182
18.5656	182
18.6157	198
18.6657	170
18.7158	169
18.7658	193
18.8159	194
18.866	162
18.916	191
18.9661	178
19.0161	203
19.0662	183
19.1162	199
19.1663	203
19.2164	205
19.2664	194
19.3165	176
19.3665	226
19.4166	207
19.4666	214
19.5167	276
19.5668	261
19.6168	283
19.6669	278
19.7169	261
19.767	240
19.817	200
19.8671	197
19.9172	209
19.9672	167
20.0173	197
20.0673	191
20.1174	221
20.1674	185
20.2175	186
20.2676	191
20.3176	191
20.3677	201
20.4177	200
20.4678	208
20.5178	229
20.5679	227
20.618	236
20.668	240
20.7181	250
20.7681	263
20.8182	259
20.8682	221
20.9183	193
20.9684	213
21.0184	220
21.0685	226
21.1185	222
21.1686	222
21.2186	226
21.2687	209
21.3188	226
21.3688	235
21.4189	218
21.4689	232
21.519	226
21.569	190
21.6191	188
21.6692	196
21.7192	195
21.7693	233
21.8193	173
21.8694	194
21.9194	193
21.9695	215
22.0196	191
22.0696	196
22.1197	226
22.1697	239
22.2198	220
22.2698	201
22.3199	202
22.37	224
22.42	208
22.4701	216
22.5201	220
22.5702	233
22.6202	226
22.6703	208
22.7204	217
22.7704	225
22.8205	223
22.8705	218
22.9206	220
22.9706	222
23.0207	202
23.0708	224
23.1208	257
23.1709	258
23.2209	259
23.271	228
23.321	256
23.3711	257
23.4212	241
23.4712	220
23.5213	250
23.5713	248
23.6214	234
23.6714	216
23.7215	213
23.7716	237
23.8216	228
23.8717	265
23.9217	245
23.9718	203
24.0218	243
24.0719	218
24.122	225
24.172	204
24.2221	240
24.2721	238
24.3222	202
24.3722	189
24.4223	232
24.4724	220
24.5224	228
24.5725	217
24.6225	199
24.6726	215
24.7226	214
24.7727	217
24.8228	216
24.8728	224
24.9229	213
24.9729	274
25.023	222
25.073	235
25.1231	252
25.1732	254
25.2232	221
25.2733	241
25.3233	241
25.3734	238
25.4234	261
25.4735	232
25.5236	286
25.5736	293
25.6237	298
25.6737	297
25.7238	323
25.7738	294
25.8239	298
25.874	273
25.924	270
25.9741	301
26.0241	280
26.0742	244
26.1242	228
26.1743	251
26.2244	232
26.2744	240
26.3245	223
26.3745	247
26.4246	206
26.4746	234
26.5247	239
26.5748	228
26.6248	254
26.6749	267
26.7249	219
26.775	284
26.825	286
26.8751	294
26.9252	267
26.9752	266
27.0253	280
27.0753	278
27.1254	264
27.1754	238
27.2255	248
27.2756	244
27.3256	203
27.3757	210
27.4257	201
27.4758	260
27.5258	225
27.5759	257
27.626	253
27.676	238
27.7261	241
27.7761	253
27.8262	238
27.8762	247
27.9263	247
27.9764	339
28.0264	492
28.0765	717
28.1265	882
28.1766	932
28.2267	906
28.2767	858
28.3268	706
28.3768	523
28.4269	444
28.4769	335
28.527	284
28.5771	276
28.6271	241
28.6772	221
28.7272	205
28.7773	222
28.8273	207
28.8774	262
28.9275	213
28.9775	239
29.0276	237
29.0776	281
29.1277	246
29.1777	250
29.2278	232
29.2779	262
29.3279	303
29.378	372
29.428	503
29.4781	606
29.5281	597
29.5782	703
29.6283	692
29.6783	614
29.7284	526
29.7784	507
29.8285	422
29.8785	460
29.9286	442
29.9787	444
30.0287	395
30.0788	415
30.1288	365
30.1789	362
30.2289	364
30.279	315
30.3291	299
30.3791	266
30.4292	268
30.4792	299
30.5293	305
30.5793	294
30.6294	292
30.6795	291
30.7295	302
30.7796	284
30.8296	244
30.8797	287
30.9297	267
30.9798	265
31.0299	269
31.0799	282
31.13	274
31.18	266
31.2301	245
31.2801	234
31.3302	210
31.3803	207
31.4303	182
31.4804	223
31.5304	217
31.5805	215
31.6305	215
31.6806	224
31.7307	212
31.7807	234
31.8308	259
31.8808	293
31.9309	294
31.9809	306
32.031	316
32.0811	323
32.1311	292
32.1812	268
32.2312	241
32.2813	257
32.3313	261
32.3814	268
32.4315	260
32.4815	230
32.5316	251
32.5816	240
32.6317	221
32.6817	227
32.7318	180
32.7819	205
32.8319	216
32.882	203
32.932	201
32.9821	214
33.0321	231
33.0822	254
33.1323	274
33.1823	264
33.2324	304
33.2824	312
33.3325	359
33.3825	394
33.4326	452
33.4827	420
33.5327	423
33.5828	417
33.6328	395
33.6829	355
33.7329	330
33.783	290
33.8331	329
33.8831	270
33.9332	334
33.9832	420
34.0333	582
34.0833	625
34.1334	764
34.1835	766
34.2335	727
34.2836	617
34.3336	488
34.3837	379
34.4337	347
34.4838	298
34.5339	265
34.5839	237
34.634	218
34.684	239
34.7341	196
34.7841	194
34.8342	185
34.8843	204
34.9343	206
34.9844	168
35.0344	187
35.0845	183
35.1345	188
35.1846	172
35.2347	196
35.2847	223
35.3348	171
35.3848	225
35.4349	187
35.4849	192
35.535	216
35.5851	204
35.6351	175
35.6852	195
35.7352	197
35.7853	169
35.8353	187
35.8854	188
35.9355	201
35.9855	201
36.0356	207
36.0856	206
36.1357	231
36.1857	238
36.2358	224
36.2859	188
36.3359	217
36.386	191
36.436	167
36.4861	180
36.5361	174
36.5862	197
36.6363	210
36.6863	174
36.7364	213
36.7864	181
36.8365	225
36.8865	194
36.9366	207
36.9867	181
37.0367	195
37.0868	215
37.1368	149
37.1869	184
37.237	190
37.287	183
37.3371	199
37.3871	191
37.4372	202
37.4872	174
37.5373	197
37.5874	192
37.6374	186
37.6875	187
37.7375	202
37.7876	202
37.8376	205
37.8877	170
37.9378	189
37.9878	191
38.0379	192
38.0879	208
38.138	206
38.188	186
38.2381	160
38.2882	185
38.3382	167
38.3883	184
38.4383	182
38.4884	185
38.5384	178
38.5885	163
38.6386	166
38.6886	190
38.7387	175
38.7887	185
38.8388	184
38.8888	183
38.9389	230
38.989	198
39.039	200
39.0891	219
39.1391	200
39.1892	228
39.2392	215
39.2893	216
39.3394	211
39.3894	225
39.4395	245
39.4895	273
39.5396	304
39.5896	327
39.6397	317
39.6898	266
39.7398	247
39.7899	215
39.8399	227
39.89	248
39.94	212
39.9901	231
40.0402	223
40.0902	224
40.1403	258
40.1903	252
40.2404	263
40.2904	236
40.3405	234
40.3906	233
40.4406	281
40.4907	231
40.5407	242
40.5908	242
40.6408	261
40.6909	259
40.741	315
40.791	280
40.8411	294
40.8911	303
40.9412	317
40.9912	349
41.0413	296
41.0914	276
41.1414	280
41.1915	258
41.2415	266
41.2916	258
41.3416	232
41.3917	237
41.4418	217
41.4918	237
41.5419	257
41.5919	218
41.642	210
41.692	246
41.7421	215
41.7922	271
41.8422	301
41.8923	332
41.9423	344
41.9924	302
42.0424	325
42.0925	298
42.1426	269
42.1926	236
42.2427	231
42.2927	260
42.3428	201
42.3928	235
42.4429	212
42.493	227
42.543	224
42.5931	226
42.6431	251
42.6932	220
42.7432	243
42.7933	244
42.8434	250
42.8934	239
42.9435	247
42.9935	219
43.0436	235
43.0936	232
43.1437	220
43.1938	247
43.2438	262
43.2939	278
43.3439	272
43.394	266
43.444	246
43.4941	222
43.5442	224
43.5942	215
43.6443	242
43.6943	209
43.7444	257
43.7944	209
43.8445	241
43.8946	229
43.9446	210
43.9947	228
44.0447	215
44.0948	184
44.1448	195
44.1949	219
44.245	177
44.295	194
44.3451	188
44.3951	186
44.4452	188
44.4952	183
44.5453	175
44.5954	198
44.6454	211
44.6955	273
44.7455	265
44.7956	297
44.8456	285
44.8957	317
44.9458	258
44.9958	288
45.0459	253
45.0959	251
45.146	284
45.196	268
45.2461	276
45.2962	250
45.3462	240
45.3963	208
45.4463	222
45.4964	207
45.5464	214
45.5965	198
45.6466	198
45.6966	208
45.7467	213
45.7967	222
45.8468	219
45.8968	210
45.9469	189
45.997	209
46.047	202
46.0971	201
46.1471	242
46.1972	220
46.2473	225
46.2973	239
46.3474	233
46.3974	241
46.4475	219
46.4975	223
46.5476	224
46.5977	217
46.6477	196
46.6978	217
46.7478	200
46.7979	214
46.8479	198
46.898	222
46.9481	218
46.9981	214
47.0482	219
47.0982	217
47.1483	208
47.1983	223
47.2484	220
47.2985	247
47.3485	242
47.3986	213
47.4486	254
47.4987	304
47.5487	261
47.5988	264
47.6489	285
47.6989	264
47.749	246
47.799	210
47.8491	214
47.8991	215
47.9492	181
47.9993	187
48.0493	179
48.0994	180
48.1494	202
48.1995	206
48.2495	197
48.2996	221
48.3497	270
48.3997	288
48.4498	324
48.4998	361
48.5499	356
48.5999	358
48.65	352
48.7001	322
48.7501	328
48.8002	281
48.8502	283
48.9003	235
48.9503	212
49.0004	209
49.0505	203
49.1005	194
49.1506	172
49.2006	202
49.2507	178
49.3007	162
49.3508	197
49.4009	180
49.4509	195
49.501	192
49.551	210
49.6011	200
49.6511	210
49.7012	213
49.7513	214
49.8013	222
49.8514	208
49.9014	241
49.9515	256
50.0015	231
50.0516	259
50.1017	184
50.1517	197
50.2018	223
50.2518	188
50.3019	207
50.3519	195
50.402	193
50.4521	185
50.5021	168
50.5522	181
50.6022	184
50.6523	176
50.7023	198
50.7524	177
50.8025	206
50.8525	181
50.9026	208
50.9526	191
51.0027	197
51.0527	201
51.1028	198
51.1529	215
51.2029	164
51.253	223
51.303	174
51.3531	194
51.4031	171
51.4532	173
51.5033	167
51.5533	176
51.6034	168
51.6534	174
51.7035	185
51.7535	162
51.8036	148
51.8537	170
51.9037	164
51.9538	170
52.0038	165
52.0539	199
52.1039	188
52.154	188
52.2041	217
52.2541	220
52.3042	221
52.3542	235
52.4043	213
52.4543	235
52.5044	191
52.5545	199
52.6045	171
52.6546	170
52.7046	165
52.7547	156
52.8047	155
52.8548	172
52.9049	151
52.9549	169
53.005	150
53.055	138
53.1051	174
53.1551	153
53.2052	162
53.2553	172
53.3053	156
53.3554	192
53.4054	197
53.4555	227
53.5055	212
53.5556	215
53.6057	206
53.6557	214
53.7058	209
53.7558	204
53.8059	178
53.8559	200
53.906	190
53.9561	184
54.0061	213
54.0562	208
54.1062	212
54.1563	216
54.2063	207
54.2564	181
54.3065	211
54.3565	199
54.4066	195
54.4566	162
54.5067	203
54.5567	183
54.6068	214
54.6569	212
54.7069	206
54.757	202
54.807	220
54.8571	184
54.9071	200
54.9572	204
55.0073	201
55.0573	183
55.1074	196
55.1574	160
55.2075	158
55.2576	171
55.3076	176
55.3577	162
55.4077	157
55.4578	155
55.5078	145
55.5579	159
55.608	149
55.658	158
55.7081	172
55.7581	185
55.8082	190
55.8582	180
55.9083	203
55.9584	198
56.0084	197
56.0585	198
56.1085	201
56.1586	172
56.2086	173
56.2587	152
56.3088	160
56.3588	160
56.4089	141
56.4589	151
56.509	136
56.559	176
56.6091	166
56.6592	164
56.7092	165
56.7593	165
56.8093	167
56.8594	166
56.9094	166
56.9595	171
57.0096	157
57.0596	192
57.1097	195
57.1597	181
57.2098	210
57.2598	199
57.3099	198
57.36	168
57.41	199
57.4601	194
57.5101	186
57.5602	203
57.6102	184
57.6603	171
57.7104	179
57.7604	172
57.8105	179
57.8605	163
57.9106	169
57.9606	159
58.0107	166
58.0608	164
58.1108	185
58.1609	191
58.2109	183
58.261	216
58.311	190
58.3611	207
58.4112	234
58.4612	207
58.5113	173
58.5613	164
58.6114	178
58.6614	188
58.7115	141
58.7616	140
58.8116	143
58.8617	165
58.9117	129
58.9618	140
59.0118	141
59.0619	143
59.112	140
59.162	156
59.2121	147
59.2621	143
59.3122	171
59.3622	175
59.4123	199
59.4624	183
59.5124	184
59.5625	196
59.6125	178
59.6626	177
59.7126	178
59.7627	182
59.8128	163
59.8628	162
59.9129	152
59.9629	166
60.013	160
60.063	157
60.1131	192
60.1632	144
60.2132	153
60.2633	155
60.3133	127
60.3634	161
60.4134	191
60.4635	167
60.5136	154
60.5636	212
60.6137	199
60.6637	188
60.7138	217
60.7638	221
60.8139	252
60.864	211
60.914	232
60.9641	198
61.0141	195
61.0642	211
61.1142	196
61.1643	182
61.2144	170
61.2644	170
61.3145	177
61.3645	161
61.4146	160
61.4646	173
61.5147	194
61.5648	161
61.6148	152
61.6649	183
61.7149	174
61.765	186
61.815	172
61.8651	202
61.9152	194
61.9652	207
62.0153	183
62.0653	204
62.1154	173
62.1654	182
62.2155	188
62.2656	169
62.3156	173
62.3657	168
62.4157	156
62.4658	168
62.5158	166
62.5659	158
62.616	159
62.666	157
62.7161	144
62.7661	174
62.8162	160
62.8662	162
62.9163	170
62.9664	158
63.0164	202
63.0665	191
63.1165	169
63.1666	194
63.2166	184
63.2667	196
63.3168	163
63.3668	196
63.4169	183
63.4669	146
63.517	149
63.567	123
63.6171	145
63.6672	161
63.7172	139
63.7673	152
63.8173	134
63.8674	133
63.9174	135
63.9675	147
64.0176	150
64.0676	164
64.1177	150
64.1677	179
64.2178	176
64.2678	183
64.3179	186
64.368	183
64.418	186
64.4681	189
64.5181	177
64.5682	169
64.6183	159
64.6683	152
64.7184	173
64.7684	149
64.8185	154
64.8685	187
64.9186	154
64.9687	169
65.0187	152
65.0688	157
65.1188	135
65.1689	148
65.2189	165
65.269	157
65.3191	159
65.3691	172
65.4192	176
65.4692	213
65.5193	165
65.5693	173
65.6194	177
65.6695	184
65.7195	186
65.7696	157
65.8196	178
65.8697	142
65.9197	158
65.9698	164
66.0199	138
66.0699	116
66.12	149
66.17	117
66.2201	141
66.2701	103
66.3202	131
66.3703	132
66.4203	132
66.4704	147
66.5204	168
66.5705	162
66.6205	170
66.6706	166
66.7207	182
66.7707	151
66.8208	154
66.8708	135
66.9209	163
66.9709	163
67.021	140
67.0711	117
67.1211	128
67.1712	119
67.2212	131
67.2713	117
67.3213	123
67.3714	117
67.4215	128
67.4715	115
67.5216	122
67.5716	114
67.6217	124
67.6717	126
67.7218	133
67.7719	128
67.8219	157
67.872	171
67.922	179
67.9721	154
68.0221	142
68.0722	153
68.1223	158
68.1723	151
68.2224	134
68.2724	140
68.3225	135
68.3725	126
68.4226	148
68.4727	136
68.5227	141
68.5728	136
68.6228	138
68.6729	98
68.7229	106
68.773	132
68.8231	96
68.8731	126
68.9232	156
68.9732	143
69.0233	141
69.0733	160
69.1234	164
69.1735	154
69.2235	147
69.2736	167
69.3236	165
69.3737	190
69.4237	152
69.4738	140
69.5239	157
69.5739	122
69.624	143
69.674	121
69.7241	114
69.7741	129
69.8242	108
69.8743	135
69.9243	121
69.9744	122
70.0244	129
70.0745	161
70.1245	143
70.1746	153
70.2247	161
70.2747	173
70.3248	144
70.3748	177
70.4249	171
70.4749	155
70.525	158
70.5751	128
70.6251	140
70.6752	140
70.7252	110
70.7753	115
70.8253	150
70.8754	117
70.9255	111
70.9755	111
71.0256	114
71.0756	120
71.1257	110
71.1757	134
71.2258	101
71.2759	150
71.3259	123
71.376	136
71.426	151
71.4761	161
71.5261	140
71.5762	165
71.6263	176
71.6763	159
71.7264	150
71.7764	169
71.8265	133
71.8765	129
71.9266	136
71.9767	137
72.0267	120
72.0768	118
72.1268	117
72.1769	117
72.2269	140
72.277	112
72.3271	113
72.3771	108
72.4272	137
72.4772	142
72.5273	141
72.5773	149
72.6274	139
72.6775	111
72.7275	130
72.7776	184
72.8276	125
72.8777	132
72.9277	144
72.9778	150
73.0279	124
73.0779	160
73.128	123
73.178	148
73.2281	116
73.2781	128
73.3282	120
73.3783	101
73.4283	108
73.4784	106
73.5284	128
73.5785	134
73.6286	139
73.6786	122
73.7287	134
73.7787	129
73.8288	157
73.8788	137
73.9289	171
73.9789	172
74.029	149
74.0791	144
74.1291	154
74.1792	151
74.2292	130
74.2793	135
74.3294	151
74.3794	121
74.4295	108
74.4795	125
74.5296	98
74.5796	110
74.6297	115
74.6798	85
74.7298	116
74.7799	133
74.8299	133
74.88	123
74.93	128
74.9801	132
75.0302	141
75.0802	144
75.1303	128
75.1803	135
75.2304	161
75.2804	142
75.3305	132
75.3806	119
75.4306	155
75.4807	124
75.5307	138
75.5808	131
75.6308	132
75.6809	138
75.731	123
75.781	102
75.8311	108
75.8811	132
75.9312	129
75.9812	124
76.0313	124
76.0814	118
76.1314	124
76.1815	117
76.2315	141
76.2816	154
76.3316	161
76.3817	163
76.4318	138
76.4818	148
76.5319	134
76.5819	152
76.632	149
76.682	115
76.7321	129
76.7822	125
76.8322	123
76.8823	123
76.9323	130
76.9824	135
77.0324	119
77.0825	138
77.1326	112
77.1826	125
77.2327	127
77.2827	115
77.3328	127
77.3828	147
77.4329	133
77.483	148
77.533	122
77.5831	163
77.6331	137
77.6832	136
77.7332	147
77.7833	126
77.8334	120
77.8834	126
77.9335	140
77.9835	97
78.0336	118
78.0836	119
78.1337	122
78.1838	116
78.2338	102
78.2839	123
78.3339	132
78.384	138
78.434	110
78.4841	136
78.5342	141
78.5842	143
78.6343	159
78.6843	143
78.7344	190
78.7844	150
78.8345	151
78.8846	161
78.9346	124
78.9847	133
79.0347	103
79.0848	132
79.1348	130
79.1849	111
79.235	115
79.285	120
79.3351	108
79.3851	99
79.4352	110
79.4852	140
79.5353	109
79.5854	113
79.6354	130
79.6855	116
79.7355	140
79.7856	115
79.8356	137
79.8857	154
79.9358	128
79.9858	150
80.0359	135